{
  "resourceType": "Bundle",
  "type": "transaction",
  "entry": [
    {
      "resource": {
        "resourceType": "Patient",
        "id": "0"
      },
      "request": {
        "method": "PUT",
        "url": "Patient/0"
      }
    },
    {
      "resource": {
        "resourceType": "Patient",
        "id": "1"
      },
      "request": {
        "method": "PUT",
        "url": "Patient/1"
      }
    },
    {
      "resource": {
        "resourceType": "Condition",
        "id": "0",
        "code": {
          "coding": [
            {
              "system": "http://hl7.org/fhir/sid/icd-10",
              "code": "C41.9"
            }
          ]
        },
        "bodySite": [
          {
            "concept": {
              "coding": [
                {
                  "system": "urn:oid:2.16.840.1.113883.6.43.1",
                  "code": "C44.6"
                }
              ]
            }
          }
        ],
        "subject": {
          "reference": "Patient/0"
        }
      },
      "request": {
        "method": "PUT",
        "url": "Condition/0"
      }
    },
    {
      "resource": {
        "resourceType": "Condition",
        "id": "1",
        "code": {
          "coding": [
            {
              "system": "http://hl7.org/fhir/sid/icd-10",
              "code": "C41.9"
            }
          ]
        },
        "bodySite": [
          {
            "concept": {
              "coding": [
                {
                  "system": "urn:oid:2.16.840.1.113883.6.43.1",
                  "code": "C44.6"
                }
              ]
            }
          }
        ],
        "subject": {
          "reference": "Patient/0"
        }
      },
      "request": {
        "method": "PUT",
        "url": "Condition/1"
      }
    },
    {
      "resource": {
        "resourceType": "Procedure",
        "id": "0",
        "category": {
          "coding": [
            {
              "system": "http://dktk.dkfz.de/fhir/onco/core/CodeSystem/SYSTTherapieartCS",
              "code": "ST"
            }
          ]
        },
        "reasonReference": [
          {
            "reference": "Condition/0"
          }
        ],
        "subject": {
          "reference": "Patient/0"
        }
      },
      "request": {
        "method": "PUT",
        "url": "Procedure/1"
      }
    },
    {
      "resource": {
        "resourceType": "Condition",
        "id": "2",
        "code": {
          "coding": [
            {
              "system": "http://hl7.org/fhir/sid/icd-10",
              "code": "C41.9"
            }
          ]
        },
        "bodySite": [
          {
            "concept": {
              "coding": [
                {
                  "system": "urn:oid:2.16.840.1.113883.6.43.1",
                  "code": "C44.6"
                }
              ]
            }
          }
        ],
        "subject": {
          "reference": "Patient/1"
        }
      },
      "request": {
        "method": "PUT",
        "url": "Condition/2"
      }
    },
    {
      "resource": {
        "resourceType": "Measure",
        "id": "0",
        "url": "0",
        "status": "active",
        "subjectCodeableConcept": {
          "coding": [
            {
              "system": "http://hl7.org/fhir/resource-types",
              "code": "Patient"
            }
          ]
        },
        "library": [
          "0"
        ],
        "scoring": {
          "coding": [
            {
              "system": "http://terminology.hl7.org/CodeSystem/measure-scoring",
              "code": "cohort"
            }
          ]
        },
        "group": [
          {
            "population": [
              {
                "code": {
                  "coding": [
                    {
                      "system": "http://terminology.hl7.org/CodeSystem/measure-population",
                      "code": "initial-population"
                    }
                  ]
                },
                "criteria": {
                  "language": "text/cql-identifier",
                  "expression": "InInitialPopulation"
                }
              }
            ]
          }
        ]
      },
      "request": {
        "method": "PUT",
        "url": "Measure/0"
      }
    }
  ]
}
