{
  "resourceType": "Bundle",
  "type": "transaction",
  "entry": [
    {
      "resource": {
        "resourceType": "Patient",
        "id": "0",
        "birthDate": "1990"
      },
      "request": {
        "method": "PUT",
        "url": "Patient/0"
      }
    },
    {
      "resource": {
        "resourceType": "Patient",
        "id": "1"
      },
      "request": {
        "method": "PUT",
        "url": "Patient/1"
      }
    },
    {
      "resource": {
        "resourceType": "Patient",
        "id": "2",
        "birthDate": "1990"
      },
      "request": {
        "method": "PUT",
        "url": "Patient/2"
      }
    },
    {
      "resource": {
        "resourceType": "Observation",
        "id": "0",
        "code": {
          "coding": [
            {
              "system": "http://loinc.org",
              "code": "39156-5"
            }
          ]
        },
        "subject": {
          "reference": "Patient/0"
        },
        "effectiveDateTime": "2020",
        "valueQuantity": {
          "value": 18,
          "unit": "kg/m2",
          "system": "http://unitsofmeasure.org",
          "code": "kg/m2"
        }
      },
      "request": {
        "method": "PUT",
        "url": "Observation/0"
      }
    },
    {
      "resource": {
        "resourceType": "Observation",
        "id": "1",
        "code": {
          "coding": [
            {
              "system": "http://loinc.org",
              "code": "39156-5"
            }
          ]
        },
        "subject": {
          "reference": "Patient/1"
        },
        "effectiveDateTime": "2020",
        "valueQuantity": {
          "value": 18,
          "unit": "kg/m2",
          "system": "http://unitsofmeasure.org",
          "code": "kg/m2"
        }
      },
      "request": {
        "method": "PUT",
        "url": "Observation/1"
      }
    },
    {
      "resource": {
        "resourceType": "Observation",
        "id": "2",
        "code": {
          "coding": [
            {
              "system": "http://loinc.org",
              "code": "39156-5"
            }
          ]
        },
        "subject": {
          "reference": "Patient/2"
        },
        "effectiveDateTime": "2020",
        "valueQuantity": {
          "value": 20,
          "unit": "kg/m2",
          "system": "http://unitsofmeasure.org",
          "code": "kg/m2"
        }
      },
      "request": {
        "method": "PUT",
        "url": "Observation/1"
      }
    },
    {
      "resource": {
        "resourceType": "Measure",
        "id": "0",
        "url": "0",
        "status": "active",
        "subjectCodeableConcept": {
          "coding": [
            {
              "system": "http://hl7.org/fhir/resource-types",
              "code": "Patient"
            }
          ]
        },
        "library": [
          "0"
        ],
        "scoring": {
          "coding": [
            {
              "system": "http://terminology.hl7.org/CodeSystem/measure-scoring",
              "code": "cohort"
            }
          ]
        },
        "group": [
          {
            "population": [
              {
                "code": {
                  "coding": [
                    {
                      "system": "http://terminology.hl7.org/CodeSystem/measure-population",
                      "code": "initial-population"
                    }
                  ]
                },
                "criteria": {
                  "language": "text/cql",
                  "expression": "InInitialPopulation"
                }
              }
            ],
            "stratifier": [
              {
                "code": {
                  "text": "Underweight"
                },
                "criteria": {
                  "language": "text/cql",
                  "expression": "Underweight"
                }
              }
            ]
          }
        ]
      },
      "request": {
        "method": "PUT",
        "url": "Measure/0"
      }
    }
  ]
}
