{
  "resourceType": "Bundle",
  "type": "transaction",
  "entry": [
    {
      "resource": {
        "resourceType": "Patient",
        "id": "0"
      },
      "request": {
        "method": "PUT",
        "url": "Patient/0"
      }
    },
    {
      "resource": {
        "resourceType": "Patient",
        "id": "1"
      },
      "request": {
        "method": "PUT",
        "url": "Patient/1"
      }
    },
    {
      "resource": {
        "resourceType": "Condition",
        "id": "0",
        "code": {
          "coding": [
            {
              "system": "http://fhir.de/CodeSystem/bfarm/icd-10-gm",
              "code": "E13.9"
            }
          ]
        },
        "subject": {
          "reference": "Patient/0"
        }
      },
      "request": {
        "method": "PUT",
        "url": "Condition/0"
      }
    },
    {
      "resource": {
        "resourceType": "Condition",
        "id": "1",
        "code": {
          "coding": [
            {
              "system": "http://fhir.de/CodeSystem/bfarm/icd-10-gm",
              "code": "E13.9"
            }
          ]
        },
        "subject": {
          "reference": "Patient/1"
        }
      },
      "request": {
        "method": "PUT",
        "url": "Condition/1"
      }
    },
    {
      "resource": {
        "resourceType": "Specimen",
        "id": "0",
        "extension": [
          {
            "url": "https://www.medizininformatik-initiative.de/fhir/ext/modul-biobank/StructureDefinition/Diagnose",
            "valueReference": {
              "reference": "Condition/0"
            }
          }
        ],
        "type": {
          "coding": [
            {
              "system": "http://snomed.info/sct",
              "code": "119364003"
            }
          ]
        },
        "subject": {
          "reference": "Patient/0"
        }
      },
      "request": {
        "method": "PUT",
        "url": "Specimen/0"
      }
    },
    {
      "resource": {
        "resourceType": "Specimen",
        "id": "1",
        "type": {
          "coding": [
            {
              "system": "http://snomed.info/sct",
              "code": "119364003"
            }
          ]
        },
        "subject": {
          "reference": "Patient/1"
        }
      },
      "request": {
        "method": "PUT",
        "url": "Specimen/1"
      }
    },
    {
      "resource": {
        "resourceType": "Measure",
        "id": "0",
        "url": "0",
        "status": "active",
        "subjectCodeableConcept": {
          "coding": [
            {
              "system": "http://hl7.org/fhir/resource-types",
              "code": "Patient"
            }
          ]
        },
        "library": [
          "0"
        ],
        "scoring": {
          "coding": [
            {
              "system": "http://terminology.hl7.org/CodeSystem/measure-scoring",
              "code": "cohort"
            }
          ]
        },
        "group": [
          {
            "population": [
              {
                "code": {
                  "coding": [
                    {
                      "system": "http://terminology.hl7.org/CodeSystem/measure-population",
                      "code": "initial-population"
                    }
                  ]
                },
                "criteria": {
                  "language": "text/cql-identifier",
                  "expression": "InInitialPopulation"
                }
              }
            ]
          }
        ]
      },
      "request": {
        "method": "PUT",
        "url": "Measure/0"
      }
    }
  ]
}
