{
  "resourceType": "Bundle",
  "type": "transaction",
  "entry": [
    {
      "resource": {
        "resourceType": "Patient",
        "id": "0"
      },
      "request": {
        "method": "PUT",
        "url": "Patient/0"
      }
    },
    {
      "resource": {
        "resourceType": "Patient",
        "id": "1"
      },
      "request": {
        "method": "PUT",
        "url": "Patient/1"
      }
    },
    {
      "resource": {
        "resourceType": "Patient",
        "id": "2"
      },
      "request": {
        "method": "PUT",
        "url": "Patient/2"
      }
    },
    {
      "resource": {
        "resourceType": "Patient",
        "id": "3"
      },
      "request": {
        "method": "PUT",
        "url": "Patient/3"
      }
    },
    {
      "resource": {
        "resourceType": "Encounter",
        "id": "0",
        "class": {
          "system": "system-120749",
          "code": "code-120753"
        },
        "subject": {
          "reference": "Patient/0"
        }
      },
      "request": {
        "method": "PUT",
        "url": "Encounter/0"
      }
    },
    {
      "resource": {
        "resourceType": "Encounter",
        "id": "1",
        "class": {
          "system": "system-120749",
          "code": "code-120826"
        },
        "subject": {
          "reference": "Patient/1"
        }
      },
      "request": {
        "method": "PUT",
        "url": "Encounter/1"
      }
    },
    {
      "resource": {
        "resourceType": "Encounter",
        "id": "2",
        "class": {
          "system": "system-120749",
          "code": "code-120753",
          "version": "version-120852"
        },
        "subject": {
          "reference": "Patient/2"
        }
      },
      "request": {
        "method": "PUT",
        "url": "Encounter/2"
      }
    },
    {
      "resource": {
        "resourceType": "Encounter",
        "id": "3",
        "subject": {
          "reference": "Patient/3"
        }
      },
      "request": {
        "method": "PUT",
        "url": "Encounter/3"
      }
    },
    {
      "resource": {
        "resourceType": "Measure",
        "id": "0",
        "url": "0",
        "status": "active",
        "subjectCodeableConcept": {
          "coding": [
            {
              "system": "http://hl7.org/fhir/resource-types",
              "code": "Patient"
            }
          ]
        },
        "library": [
          "0"
        ],
        "scoring": {
          "coding": [
            {
              "system": "http://terminology.hl7.org/CodeSystem/measure-scoring",
              "code": "cohort"
            }
          ]
        },
        "group": [
          {
            "population": [
              {
                "code": {
                  "coding": [
                    {
                      "system": "http://terminology.hl7.org/CodeSystem/measure-population",
                      "code": "initial-population"
                    }
                  ]
                },
                "criteria": {
                  "language": "text/cql-identifier",
                  "expression": "InInitialPopulation"
                }
              }
            ]
          }
        ]
      },
      "request": {
        "method": "PUT",
        "url": "Measure/0"
      }
    }
  ]
}
