{
  "resourceType": "Bundle",
  "type": "transaction",
  "entry": [
    {
      "resource": {
        "resourceType": "Patient",
        "id": "0"
      },
      "request": {
        "method": "PUT",
        "url": "Patient/0"
      }
    },
    {
      "resource": {
        "resourceType": "Patient",
        "id": "1"
      },
      "request": {
        "method": "PUT",
        "url": "Patient/1"
      }
    },
    {
      "resource": {
        "resourceType": "Patient",
        "id": "2"
      },
      "request": {
        "method": "PUT",
        "url": "Patient/2"
      }
    },
    {
      "resource": {
        "resourceType": "Patient",
        "id": "3"
      },
      "request": {
        "method": "PUT",
        "url": "Patient/3"
      }
    },
    {
      "request": {
        "method": "PUT",
        "url": "Condition/0"
      },
      "resource": {
        "resourceType": "Condition",
        "id": "0",
        "code": {
          "coding": [
            {
              "system": "http://fhir.de/CodeSystem/bfarm/icd-10-gm",
              "version": "2024",
              "code": "E10.6"
            }
          ]
        },
        "subject": {
          "reference": "Patient/0"
        }
      }
    },
    {
      "request": {
        "method": "PUT",
        "url": "Condition/1"
      },
      "resource": {
        "resourceType": "Condition",
        "id": "1",
        "code": {
          "coding": [
            {
              "system": "http://fhir.de/CodeSystem/bfarm/icd-10-gm",
              "code": "E10.7"
            }
          ]
        },
        "subject": {
          "reference": "Patient/1"
        }
      }
    },
    {
      "request": {
        "method": "PUT",
        "url": "Condition/2"
      },
      "resource": {
        "resourceType": "Condition",
        "id": "2",
        "code": {
          "coding": [
            {
              "system": "http://fhir.de/CodeSystem/bfarm/icd-10-gm",
              "code": "E11.7"
            }
          ]
        },
        "subject": {
          "reference": "Patient/2"
        }
      }
    },
    {
      "resource": {
        "resourceType": "CodeSystem",
        "id": "0",
        "url": "http://fhir.de/CodeSystem/bfarm/icd-10-gm",
        "content": "fragment",
        "concept": [
          {
            "code": "E10",
            "display": "Diabetes mellitus, Typ 1"
          },
          {
            "code": "E10.6",
            "display": "Diabetes mellitus, Typ 1: Mit sonstigen näher bezeichneten Komplikationen",
            "property": [
              {
                "code": "parent",
                "valueCode": "E10"
              }
            ]
          },
          {
            "code": "E10.7",
            "display": "Diabetes mellitus, Typ 1: Mit multiplen Komplikationen",
            "property": [
              {
                "code": "parent",
                "valueCode": "E10"
              }
            ]
          }
        ]
      },
      "request": {
        "method": "PUT",
        "url": "CodeSystem/0"
      }
    },
    {
      "resource": {
        "resourceType": "Measure",
        "id": "0",
        "url": "0",
        "status": "active",
        "subjectCodeableConcept": {
          "coding": [
            {
              "system": "http://hl7.org/fhir/resource-types",
              "code": "Patient"
            }
          ]
        },
        "library": [
          "0"
        ],
        "scoring": {
          "coding": [
            {
              "system": "http://terminology.hl7.org/CodeSystem/measure-scoring",
              "code": "cohort"
            }
          ]
        },
        "group": [
          {
            "population": [
              {
                "code": {
                  "coding": [
                    {
                      "system": "http://terminology.hl7.org/CodeSystem/measure-population",
                      "code": "initial-population"
                    }
                  ]
                },
                "criteria": {
                  "language": "text/cql-identifier",
                  "expression": "InInitialPopulation"
                }
              }
            ]
          }
        ]
      },
      "request": {
        "method": "PUT",
        "url": "Measure/0"
      }
    }
  ]
}
